circle_color,answer_correct,need_action,trials.thisRepN,trials.thisTrialN,trials.thisN,trials.thisIndex,trials_2.thisRepN,trials_2.thisTrialN,trials_2.thisN,trials_2.thisIndex,trials_3.thisRepN,trials_3.thisTrialN,trials_3.thisN,trials_3.thisIndex,thisRow.t,notes,intrpduction.started,intrpduction.stopped,key_resp.keys,key_resp.rt,key_resp.duration,intro_A.started,key_resp_2.started,intro_A.stopped,key_resp_2.keys,key_resp_2.rt,key_resp_2.duration,focus.started,polygon_4.started,polygon_4.stopped,focus.stopped,black.started,black.stopped,text_A.started,polygon.started,key_resp_3.started,polygon.stopped,key_resp_3.stopped,text_A.stopped,key_resp_3.keys,key_resp_3.rt,key_resp_3.duration,feedback1.started,text_3.started,key_resp_9.started,feedback1.stopped,key_resp_9.keys,key_resp_9.rt,key_resp_9.duration,intro_B.started,text_4.started,key_resp_5.started,intro_B.stopped,key_resp_5.keys,key_resp_5.rt,key_resp_5.duration,focus2.started,polygon_5.started,polygon_5.stopped,focus2.stopped,black2.started,text_5.started,black2.stopped,textB.started,polygon_2.started,key_resp_4.started,textB.stopped,key_resp_4.keys,key_resp_4.rt,key_resp_4.duration,text_5.stopped,polygon_2.stopped,key_resp_4.stopped,feedback2.started,text_6.started,key_resp_10.started,feedback2.stopped,key_resp_10.keys,key_resp_10.rt,key_resp_10.duration,intro_C.started,key_resp_6.started,intro_C.stopped,key_resp_6.keys,key_resp_6.rt,key_resp_6.duration,focus3.started,polygon_6.started,polygon_6.stopped,focus3.stopped,black3.started,text_8.started,text_8.stopped,black3.stopped,texkC.started,polygon_3.started,key_resp_7.started,polygon_3.stopped,key_resp_7.stopped,texkC.stopped,key_resp_7.keys,key_resp_7.corr,key_resp_7.rt,key_resp_7.duration,feedback3.started,text_9.started,key_resp_8.started,feedback3.stopped,key_resp_8.keys,key_resp_8.corr,key_resp_8.rt,key_resp_8.duration,participant,session,date,expName,psychopyVersion,frameRate,expStart,
,,,,,,,,,,,,,,,,,0.02984039999955712,2.1559227999996438,space,2.1081141999993633,None,,,,,,,,,,,,,,,,,,,,,,,,,,,,,,,,,,,,,,,,,,,,,,,,,,,,,,,,,,,,,,,,,,,,,,,,,,,,,,,,,,,,,,,,,,,,108043,001,2024-10-21_21h46.11.181,untitled,2024.1.5,None,2024-10-21 21h46.15.613936 +0800,
,,,,,,,,,,,,,,,,,,,,,,2.155943799999477,2.1648887999999715,2.7389745999998922,space,0.5667957000005117,None,,,,,,,,,,,,,,,,,,,,,,,,,,,,,,,,,,,,,,,,,,,,,,,,,,,,,,,,,,,,,,,,,,,,,,,,,,,,,,,,,,,,,,108043,001,2024-10-21_21h46.11.181,untitled,2024.1.5,None,2024-10-21 21h46.15.613936 +0800,
blue,f,0,0,0,0,1,,,,,,,,,2.7555108999995355,,,,,,,,,,,,,2.7512644999997065,2.7555108999995355,6.74901299999965,6.743783400000211,6.743796799999473,7.135798299999806,7.135812800000167,7.147542200000316,7.147542200000316,10.137738100000206,10.137738100000206,10.132288699999663,None,,,,,,,,,,,,,,,,,,,,,,,,,,,,,,,,,,,,,,,,,,,,,,,,,,,,,,,,,,,,,,,,,,,,,,,,,108043,001,2024-10-21_21h46.11.181,untitled,2024.1.5,None,2024-10-21 21h46.15.613936 +0800,
blue,f,0,0,1,1,3,,,,,,,,,10.137738100000206,,,,,,,,,,,,,10.1325154999995,10.137738100000206,14.129610899999534,14.124247799999466,14.12425919999987,14.514450099999522,14.514460399999734,14.519961099999819,14.519961099999819,,,15.338247599999704,j,0.7996193999997558,None,,,,,,,,,,,,,,,,,,,,,,,,,,,,,,,,,,,,,,,,,,,,,,,,,,,,,,,,,,,,,,,,,,,,,,,108043,001,2024-10-21_21h46.11.181,untitled,2024.1.5,None,2024-10-21 21h46.15.613936 +0800,
red,j,1,0,2,2,0,,,,,,,,,15.345482699999593,,,,,,,,,,,,,15.338771099999576,15.345482699999593,17.339039599999523,17.333428500000082,17.33344070000021,17.72924150000017,17.729251199999453,17.734920699999748,17.734920699999748,,,18.34180279999964,j,0.602734899999632,None,,,,,,,,,,,,,,,,,,,,,,,,,,,,,,,,,,,,,,,,,,,,,,,,,,,,,,,,,,,,,,,,,,,,,,,108043,001,2024-10-21_21h46.11.181,untitled,2024.1.5,None,2024-10-21 21h46.15.613936 +0800,
red,j,1,0,3,3,6,,,,,,,,,18.345958799999607,,,,,,,,,,,,,18.342029499999626,18.345958799999607,20.339459499999975,20.333503599999858,20.33351539999967,20.729534000000058,20.729544400000123,20.73494279999977,20.73494279999977,,,21.162670300000173,j,0.41961580000042886,None,,,,,,,,,,,,,,,,,,,,,,,,,,,,,,,,,,,,,,,,,,,,,,,,,,,,,,,,,,,,,,,,,,,,,,,108043,001,2024-10-21_21h46.11.181,untitled,2024.1.5,None,2024-10-21 21h46.15.613936 +0800,
blue,f,0,0,4,4,5,,,,,,,,,21.171834099999614,,,,,,,,,,,,,21.163144699999975,21.171834099999614,25.1655152000003,25.16055619999952,25.16056810000009,25.5557060000001,25.55571619999955,25.56122460000006,25.56122460000006,28.5547803999998,28.5547803999998,28.5489477000001,None,,,,,,,,,,,,,,,,,,,,,,,,,,,,,,,,,,,,,,,,,,,,,,,,,,,,,,,,,,,,,,,,,,,,,,,,,108043,001,2024-10-21_21h46.11.181,untitled,2024.1.5,None,2024-10-21 21h46.15.613936 +0800,
blue,f,0,0,5,5,9,,,,,,,,,28.5547803999998,,,,,,,,,,,,,28.549120599999696,28.5547803999998,30.547319600000264,30.54185419999976,30.54186589999972,30.937675999999556,30.937686000000213,30.943183899999894,30.943183899999894,33.93622959999993,33.93622959999993,33.930872299999464,None,,,,,,,,,,,,,,,,,,,,,,,,,,,,,,,,,,,,,,,,,,,,,,,,,,,,,,,,,,,,,,,,,,,,,,,,,108043,001,2024-10-21_21h46.11.181,untitled,2024.1.5,None,2024-10-21 21h46.15.613936 +0800,
blue,f,0,0,6,6,7,,,,,,,,,33.93622959999993,,,,,,,,,,,,,33.93103749999955,33.93622959999993,36.9292131000002,36.92384399999992,36.92386290000013,37.31980999999996,37.319820400000026,37.32526119999966,37.32526119999966,40.31822490000013,40.31822490000013,40.31296519999978,None,,,,,,,,,,,,,,,,,,,,,,,,,,,,,,,,,,,,,,,,,,,,,,,,,,,,,,,,,,,,,,,,,,,,,,,,,108043,001,2024-10-21_21h46.11.181,untitled,2024.1.5,None,2024-10-21 21h46.15.613936 +0800,
red,j,1,0,7,7,8,,,,,,,,,40.31822490000013,,,,,,,,,,,,,40.3131414999998,40.31822490000013,42.311266599999726,42.305853599999864,42.30586529999982,42.701630900000055,42.701640999999654,42.70713199999955,42.70713199999955,45.7000766000001,45.7000766000001,45.69465949999994,None,,,,,,,,,,,,,,,,,,,,,,,,,,,,,,,,,,,,,,,,,,,,,,,,,,,,,,,,,,,,,,,,,,,,,,,,,108043,001,2024-10-21_21h46.11.181,untitled,2024.1.5,None,2024-10-21 21h46.15.613936 +0800,
red,j,1,0,8,8,4,,,,,,,,,45.7000766000001,,,,,,,,,,,,,45.69484929999999,45.7000766000001,48.693659300000036,48.68804780000028,48.688062100000025,49.08350780000001,49.083518399999775,49.08898880000015,49.08898880000015,52.08208250000007,52.08208250000007,52.07668889999968,None,,,,,,,,,,,,,,,,,,,,,,,,,,,,,,,,,,,,,,,,,,,,,,,,,,,,,,,,,,,,,,,,,,,,,,,,,108043,001,2024-10-21_21h46.11.181,untitled,2024.1.5,None,2024-10-21 21h46.15.613936 +0800,
red,j,1,0,9,9,2,,,,,,,,,52.08208250000007,,,,,,,,,,,,,52.07686079999985,52.08208250000007,55.07541140000012,55.069610399999874,55.06962209999983,55.465366299999914,55.46537619999981,55.470986000000266,55.470986000000266,58.47038979999979,58.47038979999979,58.45862339999985,None,,,,,,,,,,,,,,,,,,,,,,,,,,,,,,,,,,,,,,,,,,,,,,,,,,,,,,,,,,,,,,,,,,,,,,,,,108043,001,2024-10-21_21h46.11.181,untitled,2024.1.5,None,2024-10-21 21h46.15.613936 +0800,
,,,,,,,,,,,,,,,,,,,,,,,,,,,,,,,,,,,,,,,,,,,58.45874780000031,58.47038979999979,58.47038979999979,67.18852229999993,space,8.711803399999553,None,,,,,,,,,,,,,,,,,,,,,,,,,,,,,,,,,,,,,,,,,,,,,,,,,,,,,,,,,,,,,,,,108043,001,2024-10-21_21h46.11.181,untitled,2024.1.5,None,2024-10-21 21h46.15.613936 +0800,
,,,,,,,,,,,,,,,,,,,,,,,,,,,,,,,,,,,,,,,,,,,,,,,,,,67.18854360000023,67.19591239999954,67.19591239999954,69.07909680000012,space,1.879659399999582,None,,,,,,,,,,,,,,,,,,,,,,,,,,,,,,,,,,,,,,,,,,,,,,,,,,,,,,,,,108043,001,2024-10-21_21h46.11.181,untitled,2024.1.5,None,2024-10-21 21h46.15.613936 +0800,
red,j,1,,,,,0,0,0,6,,,,,69.09655949999978,,,,,,,,,,,,,,,,,,,,,,,,,,,,,,,,,,,,,,,,,,69.0909888999995,69.09655949999978,73.09881909999967,73.08699230000002,73.0870089,73.09881909999967,73.48789669999951,73.48790829999962,73.49353369999972,73.49353369999972,76.05078309999953,j,2.5510832999998456,None,,,,,,,,,,,,,,,,,,,,,,,,,,,,,,,,,,,,,,,,,,,108043,001,2024-10-21_21h46.11.181,untitled,2024.1.5,None,2024-10-21 21h46.15.613936 +0800,
red,j,1,,,,,0,1,1,2,,,,,76.0556704999999,,,,,,,,,,,,,,,,,,,,,,,,,,,,,,,,,,,,,,,,,,76.0511418999995,76.0556704999999,78.04715510000005,78.04133279999951,78.04134509999949,78.04715510000005,78.43155959999967,78.4315704999999,78.43650720000005,78.43650720000005,79.13304499999958,j,0.6836395999998786,None,78.43650720000005,,,,,,,,,,,,,,,,,,,,,,,,,,,,,,,,,,,,,,,,,,108043,001,2024-10-21_21h46.11.181,untitled,2024.1.5,None,2024-10-21 21h46.15.613936 +0800,
blue,f,0,,,,,0,2,2,1,,,,,79.13716320000003,,,,,,,,,,,,,,,,,,,,,,,,,,,,,,,,,,,,,,,,,,79.13327289999961,79.13716320000003,81.13073149999946,81.1260400000001,81.12605280000025,81.13073149999946,81.52091120000023,81.52091959999962,81.52647129999968,81.52647129999968,84.51445710000007,None,,,81.52647129999968,84.51980679999997,84.51980679999997,,,,,,,,,,,,,,,,,,,,,,,,,,,,,,,,,,,,,,,,108043,001,2024-10-21_21h46.11.181,untitled,2024.1.5,None,2024-10-21 21h46.15.613936 +0800,
red,j,1,,,,,0,3,3,0,,,,,84.51980679999997,,,,,,,,,,,,,,,,,,,,,,,,,,,,,,,,,,,,,,,,,,84.51463049999984,84.51980679999997,86.5125581000002,86.50702720000027,86.50703950000025,86.5125581000002,86.90338319999955,86.90339200000017,86.90862229999948,86.90862229999948,89.8960846,None,,,86.90862229999948,89.90157739999995,89.90157739999995,,,,,,,,,,,,,,,,,,,,,,,,,,,,,,,,,,,,,,,,108043,001,2024-10-21_21h46.11.181,untitled,2024.1.5,None,2024-10-21 21h46.15.613936 +0800,
blue,f,0,,,,,0,4,4,5,,,,,89.90157739999995,,,,,,,,,,,,,,,,,,,,,,,,,,,,,,,,,,,,,,,,,,89.89626339999995,89.90157739999995,93.89456749999954,93.88899949999995,93.88901119999991,93.89456749999954,94.28476210000008,94.28477079999993,94.29036619999988,94.29036619999988,97.2779631000003,None,,,94.29036619999988,97.28337120000015,97.28337120000015,,,,,,,,,,,,,,,,,,,,,,,,,,,,,,,,,,,,,,,,108043,001,2024-10-21_21h46.11.181,untitled,2024.1.5,None,2024-10-21 21h46.15.613936 +0800,
red,j,1,,,,,0,5,5,8,,,,,97.28337120000015,,,,,,,,,,,,,,,,,,,,,,,,,,,,,,,,,,,,,,,,,,97.2781286999998,97.28337120000015,101.27647090000028,101.27093119999972,101.27094380000017,101.27647090000028,101.66677179999988,101.6667824999995,101.67244459999984,101.67244459999984,104.65989189999982,None,,,101.67244459999984,104.66546519999974,104.66546519999974,,,,,,,,,,,,,,,,,,,,,,,,,,,,,,,,,,,,,,,,108043,001,2024-10-21_21h46.11.181,untitled,2024.1.5,None,2024-10-21 21h46.15.613936 +0800,
blue,f,0,,,,,0,6,6,3,,,,,104.66546519999974,,,,,,,,,,,,,,,,,,,,,,,,,,,,,,,,,,,,,,,,,,104.66010989999995,104.66546519999974,108.65843519999999,108.65298389999953,108.65299739999955,108.65843519999999,109.04869839999992,109.04870649999975,109.0543846999999,109.0543846999999,112.04186469999968,None,,,109.0543846999999,112.04870729999948,112.04870729999948,,,,,,,,,,,,,,,,,,,,,,,,,,,,,,,,,,,,,,,,108043,001,2024-10-21_21h46.11.181,untitled,2024.1.5,None,2024-10-21 21h46.15.613936 +0800,
red,j,1,,,,,0,7,7,4,,,,,112.04870729999948,,,,,,,,,,,,,,,,,,,,,,,,,,,,,,,,,,,,,,,,,,112.0420365,112.04870729999948,116.04039829999965,116.0349524000003,116.03496509999968,116.04039829999965,116.43067549999978,116.4306846999998,116.43618059999972,116.43618059999972,119.42385139999988,None,,,116.43618059999972,119.42924589999984,119.42924589999984,,,,,,,,,,,,,,,,,,,,,,,,,,,,,,,,,,,,,,,,108043,001,2024-10-21_21h46.11.181,untitled,2024.1.5,None,2024-10-21 21h46.15.613936 +0800,
blue,f,0,,,,,0,8,8,7,,,,,119.42924589999984,,,,,,,,,,,,,,,,,,,,,,,,,,,,,,,,,,,,,,,,,,119.42402579999998,119.42924589999984,123.42225919999964,123.41672349999953,123.41673609999998,123.42225919999964,123.81269299999985,123.81270309999945,123.81823129999975,123.81823129999975,126.80570569999963,None,,,123.81823129999975,126.81123089999983,126.81123089999983,,,,,,,,,,,,,,,,,,,,,,,,,,,,,,,,,,,,,,,,108043,001,2024-10-21_21h46.11.181,untitled,2024.1.5,None,2024-10-21 21h46.15.613936 +0800,
blue,f,0,,,,,0,9,9,9,,,,,126.81123089999983,,,,,,,,,,,,,,,,,,,,,,,,,,,,,,,,,,,,,,,,,,126.80586930000027,126.81123089999983,128.80428959999972,128.7988104999995,128.79882309999994,128.80428959999972,129.19485519999944,129.19486379999944,129.20021970000016,129.20021970000016,132.18755799999963,None,,,129.20021970000016,132.20012769999994,132.20012769999994,,,,,,,,,,,,,,,,,,,,,,,,,,,,,,,,,,,,,,,,108043,001,2024-10-21_21h46.11.181,untitled,2024.1.5,None,2024-10-21 21h46.15.613936 +0800,
,,,,,,,,,,,,,,,,,,,,,,,,,,,,,,,,,,,,,,,,,,,,,,,,,,,,,,,,,,,,,,,,,,,,,,,,,,132.1876489999995,132.20012769999994,132.20012769999994,134.03649870000027,space,1.8328381999999692,None,,,,,,,,,,,,,,,,,,,,,,,,,,,,,,,,,108043,001,2024-10-21_21h46.11.181,untitled,2024.1.5,None,2024-10-21 21h46.15.613936 +0800,
,,,,,,,,,,,,,,,,,,,,,,,,,,,,,,,,,,,,,,,,,,,,,,,,,,,,,,,,,,,,,,,,,,,,,,,,,,,,,,,,,134.03651960000025,134.04043050000018,136.58469760000025,space,2.5412475000002814,None,,,,,,,,,,,,,,,,,,,,,,,,,,,108043,001,2024-10-21_21h46.11.181,untitled,2024.1.5,None,2024-10-21 21h46.15.613936 +0800,
red,j,1,,,,,,,,,0,0,0,6,136.60238519999984,,,,,,,,,,,,,,,,,,,,,,,,,,,,,,,,,,,,,,,,,,,,,,,,,,,,,,,,,,,,,,,,,,,,,,,,136.59492090000003,136.60238519999984,139.60022769999978,139.5872300000001,139.58724900000016,139.60022769999978,139.99205319999965,139.98673739999958,139.98674759999994,139.99205319999965,139.99205319999965,142.99490349999996,142.99490349999996,142.98370199999954,None,0,,,,,,,,,,,108043,001,2024-10-21_21h46.11.181,untitled,2024.1.5,None,2024-10-21 21h46.15.613936 +0800,
blue,f,0,,,,,,,,,0,1,1,1,142.99490349999996,,,,,,,,,,,,,,,,,,,,,,,,,,,,,,,,,,,,,,,,,,,,,,,,,,,,,,,,,,,,,,,,,,,,,,,,142.98409619999984,142.99490349999996,146.98488069999985,146.97964309999952,146.9796567000003,146.98488069999985,147.3807128999997,147.37517639999987,147.3751857999996,147.3807128999997,147.3807128999997,150.3737076999996,150.3737076999996,150.3682017000001,None,0,,,,,,,,,,,108043,001,2024-10-21_21h46.11.181,untitled,2024.1.5,None,2024-10-21 21h46.15.613936 +0800,
red,j,1,,,,,,,,,0,2,2,2,150.3737076999996,,,,,,,,,,,,,,,,,,,,,,,,,,,,,,,,,,,,,,,,,,,,,,,,,,,,,,,,,,,,,,,,,,,,,,,,150.36841120000008,150.3737076999996,152.36683389999962,152.3611536999997,152.36116609999954,152.36683389999962,152.76257609999993,152.75707799999964,152.7570872999995,152.76257609999993,152.76257609999993,,,153.99151019999954,j,1,1.2168871000003492,None,,,,,,,,,108043,001,2024-10-21_21h46.11.181,untitled,2024.1.5,None,2024-10-21 21h46.15.613936 +0800,
blue,f,0,,,,,,,,,0,3,3,3,153.99892639999962,,,,,,,,,,,,,,,,,,,,,,,,,,,,,,,,,,,,,,,,,,,,,,,,,,,,,,,,,,,,,,,,,,,,,,,,153.99208139999973,153.99892639999962,155.99172369999997,155.98628420000023,155.98629710000023,155.99172369999997,156.3877567999998,156.38211769999998,156.38212680000015,156.3877567999998,156.3877567999998,159.3807195999998,159.3807195999998,159.37524800000028,None,0,,,,,,,,,,,108043,001,2024-10-21_21h46.11.181,untitled,2024.1.5,None,2024-10-21 21h46.15.613936 +0800,
blue,f,0,,,,,,,,,0,4,4,7,159.3807195999998,,,,,,,,,,,,,,,,,,,,,,,,,,,,,,,,,,,,,,,,,,,,,,,,,,,,,,,,,,,,,,,,,,,,,,,,159.3754511999996,159.3807195999998,161.37366070000007,161.36825119999958,161.36826370000017,161.37366070000007,161.76990409999962,161.76392269999997,161.7639323000003,161.76990409999962,161.76990409999962,164.76255159999982,164.76255159999982,164.75704179999957,None,0,,,,,,,,,,,108043,001,2024-10-21_21h46.11.181,untitled,2024.1.5,None,2024-10-21 21h46.15.613936 +0800,
blue,f,0,,,,,,,,,0,5,5,5,164.76255159999982,,,,,,,,,,,,,,,,,,,,,,,,,,,,,,,,,,,,,,,,,,,,,,,,,,,,,,,,,,,,,,,,,,,,,,,,164.75724629999968,164.76255159999982,166.75573179999992,166.7508012999997,166.75081529999989,166.75573179999992,167.15147629999956,167.14600270000028,167.1460122999997,167.15147629999956,167.15147629999956,170.14450429999943,170.14450429999943,170.13919799999985,None,0,,,,,,,,,,,108043,001,2024-10-21_21h46.11.181,untitled,2024.1.5,None,2024-10-21 21h46.15.613936 +0800,
blue,f,0,,,,,,,,,0,6,6,9,170.14450429999943,,,,,,,,,,,,,,,,,,,,,,,,,,,,,,,,,,,,,,,,,,,,,,,,,,,,,,,,,,,,,,,,,,,,,,,,170.13939500000015,170.14450429999943,174.13764379999975,174.1319811000003,174.1319937999997,174.13764379999975,174.5334012000003,174.52805290000015,174.5280616,174.5334012000003,174.5334012000003,177.5264013999995,177.5264013999995,177.52105130000018,None,0,,,,,,,,,,,108043,001,2024-10-21_21h46.11.181,untitled,2024.1.5,None,2024-10-21 21h46.15.613936 +0800,
red,j,1,,,,,,,,,0,7,7,4,177.5264013999995,,,,,,,,,,,,,,,,,,,,,,,,,,,,,,,,,,,,,,,,,,,,,,,,,,,,,,,,,,,,,,,,,,,,,,,,177.52124749999984,177.5264013999995,179.51946270000008,179.5141209000003,179.5141324999995,179.51946270000008,179.91535980000026,179.90974649999953,179.90975509999953,179.91535980000026,179.91535980000026,,,180.27652489999946,j,1,0.35304120000000694,None,,,,,,,,,108043,001,2024-10-21_21h46.11.181,untitled,2024.1.5,None,2024-10-21 21h46.15.613936 +0800,
red,j,1,,,,,,,,,0,8,8,8,180.28316579999955,,,,,,,,,,,,,,,,,,,,,,,,,,,,,,,,,,,,,,,,,,,,,,,,,,,,,,,,,,,,,,,,,,,,,,,,180.2768328000002,180.28316579999955,183.2764557999999,183.27085530000022,183.2708676000002,183.2764557999999,183.67230440000003,183.66672190000008,183.6667306999998,183.67230440000003,183.67230440000003,186.6653569,186.6653569,186.65987419999965,None,0,,,,,,,,,,,108043,001,2024-10-21_21h46.11.181,untitled,2024.1.5,None,2024-10-21 21h46.15.613936 +0800,
red,j,1,,,,,,,,,0,9,9,0,186.6653569,,,,,,,,,,,,,,,,,,,,,,,,,,,,,,,,,,,,,,,,,,,,,,,,,,,,,,,,,,,,,,,,,,,,,,,,186.66007170000012,186.6653569,189.65837629999987,189.6527828999997,189.6527956,189.65837629999987,190.05436779999945,190.04868929999975,190.04869839999992,190.05436779999945,190.05436779999945,193.05359659999976,193.05359659999976,193.04182089999995,None,0,,,,,,,,,,,108043,001,2024-10-21_21h46.11.181,untitled,2024.1.5,None,2024-10-21 21h46.15.613936 +0800,
,,,,,,,,,,,,,,,,,,,,,,,,,,,,,,,,,,,,,,,,,,,,,,,,,,,,,,,,,,,,,,,,,,,,,,,,,,,,,,,,,,,,,,,,,,,,,,,,,,,,,,,,,193.04196559999946,193.05359659999976,193.05359659999976,210.54926369999976,space,0,17.491544799999247,None,108043,001,2024-10-21_21h46.11.181,untitled,2024.1.5,None,2024-10-21 21h46.15.613936 +0800,
